wavelength,response
3.72249000,0.00120100
3.72516000,0.00109900
3.72784000,0.00111700
3.73052000,0.00121300
3.73321000,0.00121100
3.73590000,0.00125300
3.73859000,0.00123100
3.74129000,0.00120900
3.74399000,0.00123700
3.74669000,0.00119700
3.74940000,0.00112800
3.75212000,0.00109100
3.75483000,0.00103700
3.75755000,0.00095600
3.76028000,0.00085800
3.76301000,0.00071700
3.76574000,0.00060200
3.76848000,0.00057800
3.77122000,0.00058700
3.77396000,0.00047400
3.77671000,0.00037700
3.77946000,0.00031700
3.78222000,0.00023300
3.78498000,0.00023000
3.78775000,0.00015700
3.79051000,0.00022800
3.79329000,0.00042400
3.79606000,0.00047400
3.79884000,0.00056300
3.80163000,0.00063300
3.80442000,0.00045100
3.80721000,0.00046400
3.81001000,0.00085000
3.81281000,0.00094200
3.81562000,0.00081200
3.81843000,0.00103900
3.82124000,0.00113600
3.82406000,0.00104000
3.82688000,0.00132200
3.82971000,0.00136100
3.83254000,0.00119400
3.83537000,0.00118400
3.83821000,0.00110800
3.84105000,0.00112700
3.84390000,0.00119100
3.84675000,0.00114200
3.84961000,0.00113800
3.85247000,0.00094600
3.85533000,0.00097200
3.85820000,0.00102100
3.86107000,0.00077300
3.86395000,0.00069300
3.86683000,0.00064700
3.86972000,0.00052300
3.87261000,0.00045100
3.87550000,0.00036600
3.87840000,0.00039800
3.88130000,0.00039100
3.88421000,0.00022300
3.88712000,0.00022600
3.89004000,0.00030700
3.89296000,0.00040100
3.89589000,0.00066400
3.89881000,0.00120600
3.90175000,0.00162400
3.90469000,0.00192000
3.90763000,0.00269700
3.91058000,0.00355900
3.91353000,0.00423600
3.91648000,0.00516300
3.91944000,0.00627300
3.92241000,0.00732700
3.92538000,0.00878600
3.92835000,0.01068000
3.93133000,0.01237000
3.93431000,0.01432000
3.93730000,0.01668000
3.94029000,0.01937000
3.94329000,0.02232000
3.94629000,0.02581000
3.94929000,0.02994000
3.95230000,0.03479000
3.95532000,0.04024000
3.95834000,0.04690000
3.96136000,0.05481000
3.96439000,0.06381000
3.96742000,0.07436000
3.97046000,0.08669000
3.97350000,0.10100000
3.97655000,0.11750000
3.97960000,0.13580000
3.98266000,0.15730000
3.98572000,0.17930000
3.98879000,0.20230000
3.99186000,0.22810000
3.99493000,0.25220000
3.99801000,0.27750000
4.00110000,0.30040000
4.00419000,0.32070000
4.00728000,0.33900000
4.01038000,0.35500000
4.01349000,0.36690000
4.01659000,0.37550000
4.01971000,0.38050000
4.02283000,0.38370000
4.02595000,0.38540000
4.02908000,0.38460000
4.03221000,0.38240000
4.03535000,0.37980000
4.03849000,0.37810000
4.04164000,0.37430000
4.04479000,0.36950000
4.04795000,0.36570000
4.05111000,0.36070000
4.05428000,0.35680000
4.05745000,0.35310000
4.06063000,0.34880000
4.06381000,0.34430000
4.06700000,0.34020000
4.07019000,0.33670000
4.07339000,0.33370000
4.07659000,0.33080000
4.07980000,0.32830000
4.08301000,0.32680000
4.08623000,0.32620000
4.08945000,0.32540000
4.09268000,0.32490000
4.09591000,0.32510000
4.09915000,0.32600000
4.10239000,0.32830000
4.10564000,0.33030000
4.10889000,0.33240000
4.11215000,0.33510000
4.11542000,0.33860000
4.11868000,0.34480000
4.12196000,0.35070000
4.12524000,0.35520000
4.12852000,0.36170000
4.13181000,0.36890000
4.13511000,0.37640000
4.13841000,0.38380000
4.14171000,0.39160000
4.14502000,0.39950000
4.14834000,0.40850000
4.15166000,0.41810000
4.15499000,0.42690000
4.15832000,0.43490000
4.16166000,0.44110000
4.16500000,0.44730000
4.16835000,0.45450000
4.17170000,0.46050000
4.17506000,0.46600000
4.17842000,0.47090000
4.18179000,0.47550000
4.18517000,0.47980000
4.18855000,0.48410000
4.19193000,0.48850000
4.19533000,0.49080000
4.19872000,0.49220000
4.20213000,0.49480000
4.20553000,0.49670000
4.20895000,0.49720000
4.21237000,0.49740000
4.21579000,0.49700000
4.21922000,0.49720000
4.22266000,0.49630000
4.22610000,0.49420000
4.22955000,0.49230000
4.23300000,0.49040000
4.23646000,0.48830000
4.23992000,0.48730000
4.24339000,0.48470000
4.24687000,0.48050000
4.25035000,0.47730000
4.25383000,0.47490000
4.25733000,0.47280000
4.26082000,0.47040000
4.26433000,0.46800000
4.26784000,0.46740000
4.27135000,0.46640000
4.27487000,0.46460000
4.27840000,0.46510000
4.28193000,0.46590000
4.28547000,0.46570000
4.28902000,0.46620000
4.29257000,0.46770000
4.29613000,0.47140000
4.29969000,0.47440000
4.30326000,0.47730000
4.30683000,0.48070000
4.31041000,0.48320000
4.31400000,0.48640000
4.31759000,0.49020000
4.32119000,0.49290000
4.32479000,0.49540000
4.32840000,0.49830000
4.33202000,0.50140000
4.33564000,0.50460000
4.33927000,0.50690000
4.34290000,0.50900000
4.34654000,0.51080000
4.35019000,0.51280000
4.35384000,0.51480000
4.35750000,0.51560000
4.36116000,0.51620000
4.36483000,0.51940000
4.36851000,0.52280000
4.37219000,0.52370000
4.37588000,0.52520000
4.37958000,0.52790000
4.38328000,0.52990000
4.38699000,0.53130000
4.39071000,0.53360000
4.39443000,0.53680000
4.39815000,0.53910000
4.40189000,0.54070000
4.40563000,0.54230000
4.40937000,0.54380000
4.41313000,0.54590000
4.41689000,0.54730000
4.42065000,0.54700000
4.42442000,0.54710000
4.42820000,0.54790000
4.43199000,0.54800000
4.43578000,0.54810000
4.43957000,0.54810000
4.44338000,0.54640000
4.44719000,0.54620000
4.45101000,0.54670000
4.45483000,0.54430000
4.45866000,0.54190000
4.46250000,0.54170000
4.46634000,0.54180000
4.47019000,0.54000000
4.47405000,0.53750000
4.47791000,0.53650000
4.48178000,0.53510000
4.48566000,0.53230000
4.48954000,0.53100000
4.49343000,0.52970000
4.49733000,0.52660000
4.50124000,0.52350000
4.50515000,0.52180000
4.50906000,0.51910000
4.51299000,0.51650000
4.51692000,0.51550000
4.52086000,0.51350000
4.52480000,0.51100000
4.52875000,0.50990000
4.53271000,0.50820000
4.53668000,0.50670000
4.54065000,0.50690000
4.54463000,0.50690000
4.54862000,0.50520000
4.55261000,0.50400000
4.55661000,0.50370000
4.56062000,0.50320000
4.56463000,0.50340000
4.56865000,0.50320000
4.57268000,0.50180000
4.57672000,0.50060000
4.58076000,0.49980000
4.58481000,0.49810000
4.58887000,0.49550000
4.59293000,0.49390000
4.59701000,0.49300000
4.60109000,0.49110000
4.60517000,0.48890000
4.60927000,0.48600000
4.61337000,0.48360000
4.61747000,0.48120000
4.62159000,0.47770000
4.62571000,0.47520000
4.62984000,0.47250000
4.63398000,0.46970000
4.63812000,0.47050000
4.64228000,0.47170000
4.64644000,0.47260000
4.65060000,0.47440000
4.65478000,0.47510000
4.65896000,0.47650000
4.66315000,0.47970000
4.66735000,0.48260000
4.67155000,0.48450000
4.67576000,0.48630000
4.67998000,0.48890000
4.68421000,0.49100000
4.68845000,0.49230000
4.69269000,0.49410000
4.69694000,0.49550000
4.70120000,0.49700000
4.70547000,0.49830000
4.70974000,0.49850000
4.71402000,0.49790000
4.71831000,0.49660000
4.72261000,0.49460000
4.72691000,0.49380000
4.73123000,0.49230000
4.73555000,0.48910000
4.73987000,0.48530000
4.74421000,0.48330000
4.74856000,0.48050000
4.75291000,0.47670000
4.75727000,0.47380000
4.76164000,0.47070000
4.76601000,0.46710000
4.77040000,0.46480000
4.77479000,0.46220000
4.77919000,0.45820000
4.78360000,0.45430000
4.78802000,0.45130000
4.79244000,0.44960000
4.79688000,0.44850000
4.80132000,0.44670000
4.80577000,0.44520000
4.81023000,0.44360000
4.81469000,0.44210000
4.81917000,0.44210000
4.82365000,0.44210000
4.82814000,0.44050000
4.83264000,0.43990000
4.83715000,0.44100000
4.84166000,0.44110000
4.84619000,0.44050000
4.85072000,0.44090000
4.85527000,0.44100000
4.85982000,0.44060000
4.86437000,0.44110000
4.86894000,0.44100000
4.87352000,0.44110000
4.87810000,0.44140000
4.88270000,0.44180000
4.88730000,0.44350000
4.89191000,0.44410000
4.89653000,0.44460000
4.90116000,0.44540000
4.90579000,0.44610000
4.91044000,0.44600000
4.91509000,0.44380000
4.91976000,0.44190000
4.92443000,0.43910000
4.92911000,0.43440000
4.93380000,0.42710000
4.93850000,0.41870000
4.94321000,0.41080000
4.94792000,0.40230000
4.95265000,0.39360000
4.95738000,0.38610000
4.96213000,0.38000000
4.96688000,0.37640000
4.97164000,0.37430000
4.97641000,0.37260000
4.98119000,0.37160000
4.98598000,0.37280000
4.99078000,0.36860000
4.99559000,0.35620000
5.00041000,0.33030000
5.00523000,0.29320000
5.01007000,0.24780000
5.01492000,0.19270000
5.01977000,0.13900000
5.02463000,0.09684000
5.02951000,0.06535000
5.03439000,0.04236000
5.03928000,0.02735000
5.04419000,0.01749000
5.04910000,0.01081000
5.05402000,0.00669400
5.05895000,0.00375800
5.06389000,0.00199300
5.06884000,0.00090100
5.07380000,0.00059100
5.07877000,0.00048600
5.08375000,0.00030300
5.08874000,0.00030000
5.09374000,0.00036900
5.09874000,0.00030300
5.10376000,0.00020500
5.10879000,0.00018000
5.11383000,0.00009600
5.11888000,0.00010800
5.12394000,0.00011800
5.12900000,0.00019000
5.13408000,0.00027400
5.13917000,0.00026500
5.14427000,0.00030500
5.14938000,0.00031500
5.15450000,0.00028300
5.15963000,0.00037100
5.16476000,0.00045800
5.16991000,0.00046600
5.17507000,0.00046000
5.18024000,0.00050000
5.18542000,0.00048900
5.19061000,0.00041100
5.19581000,0.00042100
5.20103000,0.00047700
5.20625000,0.00043100
5.21148000,0.00038400
5.21672000,0.00040200
5.22198000,0.00038600
