wavelength,response
2.53000000,0.00000000
2.54000000,0.00000000
2.55000000,0.00000000
2.56000000,0.00000000
2.57000000,0.00000000
2.58000000,0.00000000
2.59000000,0.00000000
2.60000000,0.00000000
2.61000000,0.00000000
2.62000000,0.00000000
2.63000000,0.00000000
2.64000000,0.00000000
2.65000000,0.00000000
2.66000000,0.00000000
2.67000000,0.00000000
2.68000000,0.00000000
2.69000000,0.00000000
2.70000000,0.00000000
2.71000000,0.00000000
2.72000000,0.00000000
2.73000000,0.00000000
2.74000000,0.00000000
2.75000000,0.00000000
2.76000000,0.00000000
2.77000000,0.00000000
2.78000000,0.00000000
2.79000000,0.00000000
2.80000000,0.00000000
2.81000000,0.00000000
2.82000000,0.00000000
2.83000000,0.00000000
2.84000000,0.00000000
2.85000000,0.00000000
2.86000000,0.00000000
2.87000000,0.00000000
2.88000000,0.00000000
2.89000000,0.00000000
2.90000000,0.00000000
2.91000000,0.00000000
2.92000000,0.00000000
2.93000000,0.00000000
2.94000000,0.00000000
2.95000000,0.00000000
2.96000000,0.00000000
2.97000000,0.00000000
2.98000000,0.00000000
2.99000000,0.00000000
3.00000000,0.00000000
3.01000000,0.00000000
3.02000000,0.00000000
3.03000000,0.00000000
3.04000000,0.00000000
3.05000000,0.00000000
3.06000000,0.00000000
3.07000000,0.00000000
3.08000000,0.00000000
3.09000000,0.00000000
3.10000000,0.00000000
3.11000000,0.00000000
3.12000000,0.00000000
3.13000000,0.00000000
3.14000000,0.00000000
3.15000000,0.00000000
3.16000000,0.00000000
3.17000000,0.00000000
3.18000000,0.00000000
3.19000000,0.00000000
3.20000000,0.00000000
3.21000000,0.00000000
3.22000000,0.00000000
3.23000000,0.00000000
3.24000000,0.00000000
3.25000000,0.00000000
3.26000000,0.00000000
3.27000000,0.00000000
3.28000000,0.00000000
3.29000000,0.00000000
3.30000000,0.00000000
3.31000000,0.00000000
3.32000000,0.00000000
3.33000000,0.00000000
3.34000000,0.00000000
3.35000000,0.00000000
3.36000000,0.00000000
3.37000000,0.00000000
3.38000000,0.00000000
3.39000000,0.00000000
3.40000000,0.00000000
3.41000000,0.00000000
3.42000000,0.00000000
3.43000000,0.00000000
3.44000000,0.00000000
3.45000000,0.00000000
3.46000000,0.00000000
3.47000000,0.00000000
3.48000000,0.00000000
3.49000000,0.00000000
3.50000000,0.00000000
3.51000000,0.00000000
3.52000000,0.00000000
3.53000000,0.00000000
3.54000000,0.00000000
3.55000000,0.00000000
3.56000000,0.00000000
3.57000000,0.00000000
3.58000000,0.00000000
3.59000000,0.00000000
3.60000000,0.00000000
3.61000000,0.00000000
3.62000000,0.00000000
3.63000000,0.00000000
3.64000000,0.00000000
3.65000000,0.00000000
3.66000000,0.00000000
3.67000000,0.00000000
3.68000000,0.00000000
3.69000000,0.00000000
3.70000000,0.00000000
3.71000000,0.00000000
3.72000000,0.00000000
3.73000000,0.00000000
3.74000000,0.00000000
3.75000000,0.00000000
3.76000000,0.00000000
3.77000000,0.00000000
3.78000000,0.00000000
3.79000000,0.00000000
3.80000000,0.00000000
3.81000000,0.00000000
3.82000000,0.00000000
3.83000000,0.00000000
3.84000000,0.00000000
3.85000000,0.00000000
3.86000000,0.00000000
3.87000000,0.00000000
3.88000000,0.00000000
3.89000000,0.00000000
3.90000000,0.00000000
3.91000000,0.00000000
3.92000000,0.00000000
3.93000000,0.00000000
3.94000000,0.00000000
3.95000000,0.00000000
3.96000000,0.00000000
3.97000000,0.00000000
3.98000000,0.00000000
3.99000000,0.00000000
4.00000000,0.00000000
4.01000000,0.00000000
4.02000000,0.00000000
4.03000000,0.00000000
4.04000000,0.00000000
4.05000000,0.00000000
4.06000000,0.00000000
4.07000000,0.00000000
4.08000000,0.00000000
4.09000000,0.00000000
4.10000000,0.00000000
4.11000000,0.00000000
4.12000000,0.00000000
4.13000000,0.00000000
4.14000000,0.00000000
4.15000000,0.00000000
4.16000000,0.00000000
4.17000000,0.00000000
4.18000000,0.00000000
4.19000000,0.00000000
4.20000000,0.00000000
4.21000000,0.00000000
4.22000000,0.00000000
4.23000000,0.00000000
4.24000000,0.00000000
4.25000000,0.00000000
4.26000000,0.00000000
4.27000000,0.00000000
4.28000000,0.00000000
4.29000000,0.00000000
4.30000000,0.00000000
4.31000000,0.00000000
4.32000000,0.00000000
4.33000000,0.00000000
4.34000000,0.00000000
4.35000000,0.00000000
4.36000000,0.00000000
4.37000000,0.00000000
4.38000000,0.00000000
4.39000000,0.00000000
4.40000000,0.00000000
4.41000000,0.00000000
4.42000000,0.00000000
4.43000000,0.00000000
4.44000000,0.00000000
4.45000000,0.00000000
4.46000000,0.00000000
4.47000000,0.00000000
4.48000000,0.00000000
4.49000000,0.00000000
4.50000000,0.00000000
4.51000000,0.00000000
4.52000000,0.00000000
4.53000000,0.00000000
4.54000000,0.00000000
4.55000000,0.00000000
4.56000000,0.00000000
4.57000000,0.00000000
4.58000000,0.00000000
4.59000000,0.00000000
4.60000000,0.00000000
4.61000000,0.00000000
4.62000000,0.00000000
4.63000000,0.00000000
4.64000000,0.00000000
4.65000000,0.00000000
4.66000000,0.00000000
4.67000000,0.00000000
4.68000000,0.00000000
4.69000000,0.00000000
4.70000000,0.00000000
4.71000000,0.00000000
4.72000000,0.00000000
4.73000000,0.00000000
4.74000000,0.00000000
4.75000000,0.00000000
4.76000000,0.00000000
4.77000000,0.00000000
4.78000000,0.00000000
4.79000000,0.00000000
4.80000000,0.00000000
4.81000000,0.00000000
4.82000000,0.00000000
4.83000000,0.00000000
4.84000000,0.00000000
4.85000000,0.00000000
4.86000000,0.00000000
4.87000000,0.00000000
4.88000000,0.00000000
4.89000000,0.00000000
4.90000000,0.00000000
4.91000000,0.00000000
4.92000000,0.00000000
4.93000000,0.00000000
4.94000000,0.00000000
4.95000000,0.00000000
4.96000000,0.00000000
4.97000000,0.00000000
4.98000000,0.00000000
4.99000000,0.00000000
5.00000000,0.00000000
5.01000000,0.00000000
5.02000000,0.00000000
5.03000000,0.00000000
5.04000000,0.00000000
5.05000000,0.00000001
5.06000000,0.00000001
5.07000000,0.00000001
5.08000000,0.00000001
5.09000000,0.00000001
5.10000000,0.00000001
5.11000000,0.00000001
5.12000000,0.00000001
5.13000000,0.00000002
5.14000000,0.00000001
5.15000000,0.00000002
5.16000000,0.00000002
5.17000000,0.00000001
5.18000000,0.00000001
5.19000000,0.00000002
5.20000000,0.00000001
5.21000000,0.00000001
5.22000000,0.00000001
5.23000000,0.00000001
5.24000000,0.00000001
5.25000000,0.00000001
5.26000000,0.00000001
5.27000000,0.00000001
5.28000000,0.00000001
5.29000000,0.00000000
5.30000000,0.00000000
5.31000000,0.00000000
5.32000000,0.00000000
5.33000000,0.00000000
5.34000000,0.00000001
5.35000000,0.00000001
5.36000000,0.00000001
5.37000000,0.00000001
5.38000000,0.00000001
5.39000000,0.00000001
5.40000000,0.00000001
5.41000000,0.00000002
5.42000000,0.00000002
5.43000000,0.00000002
5.44000000,0.00000002
5.45000000,0.00000002
5.46000000,0.00000003
5.47000000,0.00000003
5.48000000,0.00000003
5.49000000,0.00000003
5.50000000,0.00000003
5.51000000,0.00000003
5.52000000,0.00000004
5.53000000,0.00000004
5.54000000,0.00000004
5.55000000,0.00000004
5.56000000,0.00000003
5.57000000,0.00000003
5.58000000,0.00000003
5.59000000,0.00000003
5.60000000,0.00000003
5.61000000,0.00000002
5.62000000,0.00000002
5.63000000,0.00000002
5.64000000,0.00000002
5.65000000,0.00000002
5.66000000,0.00000002
5.67000000,0.00000002
5.68000000,0.00000002
5.69000000,0.00000003
5.70000000,0.00000004
5.71000000,0.00000005
5.72000000,0.00000007
5.73000000,0.00000008
5.74000000,0.00000010
5.75000000,0.00000013
5.76000000,0.00000014
5.77000000,0.00000017
5.78000000,0.00000019
5.79000000,0.00000020
5.80000000,0.00000022
5.81000000,0.00000025
5.82000000,0.00000027
5.83000000,0.00000028
5.84000000,0.00000029
5.85000000,0.00000030
5.86000000,0.00000030
5.87000000,0.00000030
5.88000000,0.00000031
5.89000000,0.00000033
5.90000000,0.00000031
5.91000000,0.00000030
5.92000000,0.00000029
5.93000000,0.00000028
5.94000000,0.00000027
5.95000000,0.00000026
5.96000000,0.00000025
5.97000000,0.00000023
5.98000000,0.00000021
5.99000000,0.00000019
6.00000000,0.00000018
6.01000000,0.00000016
6.02000000,0.00000015
6.03000000,0.00000013
6.04000000,0.00000011
6.05000000,0.00000010
6.06000000,0.00000008
6.07000000,0.00000007
6.08000000,0.00000006
6.09000000,0.00000005
6.10000000,0.00000004
6.11000000,0.00000003
6.12000000,0.00000003
6.13000000,0.00000003
6.14000000,0.00000004
6.15000000,0.00000005
6.16000000,0.00000006
6.17000000,0.00000007
6.18000000,0.00000010
6.19000000,0.00000015
6.20000000,0.00000022
6.21000000,0.00000033
6.22000000,0.00000071
6.23000000,0.00000061
6.24000000,0.00000080
6.25000000,0.00000107
6.26000000,0.00000093
6.27000000,0.00000199
6.28000000,0.00000174
6.29000000,0.00000096
6.30000000,0.00000073
6.31000000,0.00000026
6.32000000,0.00000025
6.33000000,0.00000023
6.34000000,0.00000022
6.35000000,0.00000020
6.36000000,0.00000017
6.37000000,0.00000014
6.38000000,0.00000012
6.39000000,0.00000010
6.40000000,0.00000008
6.41000000,0.00000007
6.42000000,0.00000006
6.43000000,0.00000006
6.44000000,0.00000007
6.45000000,0.00000009
6.46000000,0.00000012
6.47000000,0.00000014
6.48000000,0.00000016
6.49000000,0.00000019
6.50000000,0.00000023
6.51000000,0.00000025
6.52000000,0.00000029
6.53000000,0.00000033
6.54000000,0.00000036
6.55000000,0.00000041
6.56000000,0.00000042
6.57000000,0.00000046
6.58000000,0.00000050
6.59000000,0.00000058
6.60000000,0.00000065
6.61000000,0.00000071
6.62000000,0.00000075
6.63000000,0.00000086
6.64000000,0.00000094
6.65000000,0.00000103
6.66000000,0.00000110
6.67000000,0.00000118
6.68000000,0.00000125
6.69000000,0.00000124
6.70000000,0.00000125
6.71000000,0.00000126
6.72000000,0.00000122
6.73000000,0.00000114
6.74000000,0.00000105
6.75000000,0.00000089
6.76000000,0.00000077
6.77000000,0.00000069
6.78000000,0.00000057
6.79000000,0.00000055
6.80000000,0.00000060
6.81000000,0.00000072
6.82000000,0.00000086
6.83000000,0.00000101
6.84000000,0.00000111
6.85000000,0.00000128
6.86000000,0.00000145
6.87000000,0.00000161
6.88000000,0.00000180
6.89000000,0.00000205
6.90000000,0.00000239
6.91000000,0.00000258
6.92000000,0.00000282
6.93000000,0.00000312
6.94000000,0.00000315
6.95000000,0.00000329
6.96000000,0.00000338
6.97000000,0.00000345
6.98000000,0.00000361
6.99000000,0.00000349
7.00000000,0.00000352
7.01000000,0.00000365
7.02000000,0.00000364
7.03000000,0.00000355
7.04000000,0.00000343
7.05000000,0.00000320
7.06000000,0.00000307
7.07000000,0.00000307
7.08000000,0.00000287
7.09000000,0.00000288
7.10000000,0.00000278
7.11000000,0.00000263
7.12000000,0.00000261
7.13000000,0.00000242
7.14000000,0.00000230
7.15000000,0.00000217
7.16000000,0.00000207
7.17000000,0.00000187
7.18000000,0.00000179
7.19000000,0.00000162
7.20000000,0.00000152
7.21000000,0.00000139
7.22000000,0.00000125
7.23000000,0.00000118
7.24000000,0.00000105
7.25000000,0.00000099
7.26000000,0.00000090
7.27000000,0.00000081
7.28000000,0.00000075
7.29000000,0.00000067
7.30000000,0.00000061
7.31000000,0.00000055
7.32000000,0.00000050
7.33000000,0.00000043
7.34000000,0.00000037
7.35000000,0.00000030
7.36000000,0.00000024
7.37000000,0.00000018
7.38000000,0.00000013
7.39000000,0.00000013
7.40000000,0.00000015
7.41000000,0.00000020
7.42000000,0.00000025
7.43000000,0.00000031
7.44000000,0.00000036
7.45000000,0.00000041
7.46000000,0.00000044
7.47000000,0.00000046
7.48000000,0.00000045
7.49000000,0.00000047
7.50000000,0.00000045
7.51000000,0.00000042
7.52000000,0.00000041
7.53000000,0.00000038
7.54000000,0.00000035
7.55000000,0.00000032
7.56000000,0.00000027
7.57000000,0.00000024
7.58000000,0.00000020
7.59000000,0.00000018
7.60000000,0.00000014
7.61000000,0.00000013
7.62000000,0.00000011
7.63000000,0.00000010
7.64000000,0.00000010
7.65000000,0.00000010
7.66000000,0.00000010
7.67000000,0.00000010
7.68000000,0.00000011
7.69000000,0.00000011
7.70000000,0.00000012
7.71000000,0.00000012
7.72000000,0.00000013
7.73000000,0.00000014
7.74000000,0.00000015
7.75000000,0.00000016
7.76000000,0.00000017
7.77000000,0.00000018
7.78000000,0.00000019
7.79000000,0.00000020
7.80000000,0.00000020
7.81000000,0.00000021
7.82000000,0.00000022
7.83000000,0.00000024
7.84000000,0.00000023
7.85000000,0.00000024
7.86000000,0.00000025
7.87000000,0.00000025
7.88000000,0.00000026
7.89000000,0.00000027
7.90000000,0.00000027
7.91000000,0.00000028
7.92000000,0.00000029
7.93000000,0.00000030
7.94000000,0.00000033
7.95000000,0.00000034
7.96000000,0.00000035
7.97000000,0.00000038
7.98000000,0.00000038
7.99000000,0.00000040
8.00000000,0.00000042
8.01000000,0.00000042
8.02000000,0.00000042
8.03000000,0.00000043
8.04000000,0.00000042
8.05000000,0.00000042
8.06000000,0.00000039
8.07000000,0.00000038
8.08000000,0.00000037
8.09000000,0.00000035
8.10000000,0.00000035
8.11000000,0.00000035
8.12000000,0.00000033
8.13000000,0.00000033
8.14000000,0.00000035
8.15000000,0.00000034
8.16000000,0.00000035
8.17000000,0.00000036
8.18000000,0.00000039
8.19000000,0.00000041
8.20000000,0.00000044
8.21000000,0.00000048
8.22000000,0.00000054
8.23000000,0.00000062
8.24000000,0.00000074
8.25000000,0.00000083
8.26000000,0.00000098
8.27000000,0.00000121
8.28000000,0.00000130
8.29000000,0.00000155
8.30000000,0.00000189
8.31000000,0.00000013
8.32000000,0.00000011
8.33000000,0.00000010
8.34000000,0.00000009
8.35000000,0.00000009
8.36000000,0.00000009
8.37000000,0.00000008
8.38000000,0.00000008
8.39000000,0.00000008
8.40000000,0.00000008
8.41000000,0.00000007
8.42000000,0.00000007
8.43000000,0.00000006
8.44000000,0.00000006
8.45000000,0.00000006
8.46000000,0.00000005
8.47000000,0.00000005
8.48000000,0.00000005
8.49000000,0.00000005
8.50000000,0.00000005
8.51000000,0.00000005
8.52000000,0.00000005
8.53000000,0.00000005
8.54000000,0.00000005
8.55000000,0.00000005
8.56000000,0.00000006
8.57000000,0.00000006
8.58000000,0.00000006
8.59000000,0.00000006
8.60000000,0.00000006
8.61000000,0.00000006
8.62000000,0.00000006
8.63000000,0.00000006
8.64000000,0.00000006
8.65000000,0.00000006
8.66000000,0.00000007
8.67000000,0.00000007
8.68000000,0.00000007
8.69000000,0.00000007
8.70000000,0.00000007
8.71000000,0.00000007
8.72000000,0.00000007
8.73000000,0.00000007
8.74000000,0.00000007
8.75000000,0.00000007
8.76000000,0.00000007
8.77000000,0.00000007
8.78000000,0.00000008
8.79000000,0.00000008
8.80000000,0.00000008
8.81000000,0.00000008
8.82000000,0.00000009
8.83000000,0.00000009
8.84000000,0.00000009
8.85000000,0.00000009
8.86000000,0.00000009
8.87000000,0.00000010
8.88000000,0.00000010
8.89000000,0.00000010
8.90000000,0.00000011
8.91000000,0.00000011
8.92000000,0.00000012
8.93000000,0.00000012
8.94000000,0.00000013
8.95000000,0.00000013
8.96000000,0.00000013
8.97000000,0.00000014
8.98000000,0.00000014
8.99000000,0.00000014
9.00000000,0.00000014
9.01000000,0.00000015
9.02000000,0.00000015
9.03000000,0.00000015
9.04000000,0.00000015
9.05000000,0.00000016
9.06000000,0.00000016
9.07000000,0.00000016
9.08000000,0.00000016
9.09000000,0.00000016
9.10000000,0.00000016
9.11000000,0.00000016
9.12000000,0.00000016
9.13000000,0.00000017
9.14000000,0.00000016
9.15000000,0.00000016
9.16000000,0.00000016
9.17000000,0.00000016
9.18000000,0.00000016
9.19000000,0.00000016
9.20000000,0.00000015
9.21000000,0.00000014
9.22000000,0.00000014
9.23000000,0.00000014
9.24000000,0.00000013
9.25000000,0.00000012
9.26000000,0.00000012
9.27000000,0.00000011
9.28000000,0.00000011
9.29000000,0.00000011
9.30000000,0.00000010
9.31000000,0.00000010
9.32000000,0.00000010
9.33000000,0.00000010
9.34000000,0.00000010
9.35000000,0.00000009
9.36000000,0.00000009
9.37000000,0.00000009
9.38000000,0.00000009
9.39000000,0.00000009
9.40000000,0.00000009
9.41000000,0.00000009
9.42000000,0.00000009
9.43000000,0.00000009
9.44000000,0.00000008
9.45000000,0.00000008
9.46000000,0.00000008
9.47000000,0.00000008
9.48000000,0.00000008
9.49000000,0.00000008
9.50000000,0.00000008
9.51000000,0.00000008
9.52000000,0.00000008
9.53000000,0.00000008
9.54000000,0.00000008
9.55000000,0.00000008
9.56000000,0.00000007
9.57000000,0.00000007
9.58000000,0.00000007
9.59000000,0.00000007
9.60000000,0.00000007
9.61000000,0.00000007
9.62000000,0.00000007
9.63000000,0.00000007
9.64000000,0.00000007
9.65000000,0.00000007
9.66000000,0.00000007
9.67000000,0.00000007
9.68000000,0.00000007
9.69000000,0.00000007
9.70000000,0.00000007
9.71000000,0.00000007
9.72000000,0.00000007
9.73000000,0.00000007
9.74000000,0.00000007
9.75000000,0.00000007
9.76000000,0.00000007
9.77000000,0.00000007
9.78000000,0.00000007
9.79000000,0.00000007
9.80000000,0.00000007
9.81000000,0.00000007
9.82000000,0.00000007
9.83000000,0.00000007
9.84000000,0.00000007
9.85000000,0.00000007
9.86000000,0.00000007
9.87000000,0.00000007
9.88000000,0.00000007
9.89000000,0.00000007
9.90000000,0.00000007
9.91000000,0.00000007
9.92000000,0.00000007
9.93000000,0.00000007
9.94000000,0.00000007
9.95000000,0.00000007
9.96000000,0.00000007
9.97000000,0.00000007
9.98000000,0.00000007
9.99000000,0.00000007
10.00000000,0.00000007
10.01000000,0.00000007
10.02000000,0.00000007
10.03000000,0.00000007
10.04000000,0.00000007
10.05000000,0.00000007
10.06000000,0.00000007
10.07000000,0.00000007
10.08000000,0.00000007
10.09000000,0.00000007
10.10000000,0.00000007
10.11000000,0.00000007
10.12000000,0.00000007
10.13000000,0.00000007
10.14000000,0.00000007
10.15000000,0.00000007
10.16000000,0.00000007
10.17000000,0.00000007
10.18000000,0.00000007
10.19000000,0.00000007
10.20000000,0.00000007
10.21000000,0.00000007
10.22000000,0.00000007
10.23000000,0.00000007
10.24000000,0.00000007
10.25000000,0.00000007
10.26000000,0.00000007
10.27000000,0.00000007
10.28000000,0.00000007
10.29000000,0.00000007
10.30000000,0.00000007
10.31000000,0.00000007
10.32000000,0.00000007
10.33000000,0.00000007
10.34000000,0.00000007
10.35000000,0.00000007
10.36000000,0.00000007
10.37000000,0.00000007
10.38000000,0.00000007
10.39000000,0.00000007
10.40000000,0.00000007
10.41000000,0.00000007
10.42000000,0.00000007
10.43000000,0.00000007
10.44000000,0.00000007
10.45000000,0.00000007
10.46000000,0.00000007
10.47000000,0.00000007
10.48000000,0.00000007
10.49000000,0.00000007
10.50000000,0.00000007
10.51000000,0.00000007
10.52000000,0.00000007
10.53000000,0.00000007
10.54000000,0.00000007
10.55000000,0.00000008
10.56000000,0.00000007
10.57000000,0.00000007
10.58000000,0.00000007
10.59000000,0.00000007
10.60000000,0.00000007
10.61000000,0.00000007
10.62000000,0.00000007
10.63000000,0.00000007
10.64000000,0.00000007
10.65000000,0.00000007
10.66000000,0.00000007
10.67000000,0.00000007
10.68000000,0.00000007
10.69000000,0.00000007
10.70000000,0.00000007
10.71000000,0.00000007
10.72000000,0.00000007
10.73000000,0.00000007
10.74000000,0.00000007
10.75000000,0.00000007
10.76000000,0.00000007
10.77000000,0.00000007
10.78000000,0.00000007
10.79000000,0.00000007
10.80000000,0.00000007
10.81000000,0.00000007
10.82000000,0.00000007
10.83000000,0.00000007
10.84000000,0.00000007
10.85000000,0.00000007
10.86000000,0.00000007
10.87000000,0.00000007
10.88000000,0.00000007
10.89000000,0.00000007
10.90000000,0.00000007
10.91000000,0.00000007
10.92000000,0.00000007
10.93000000,0.00000007
10.94000000,0.00000007
10.95000000,0.00000008
10.96000000,0.00000008
10.97000000,0.00000008
10.98000000,0.00000008
10.99000000,0.00000008
11.00000000,0.00000008
11.01000000,0.00000008
11.02000000,0.00000009
11.03000000,0.00000009
11.04000000,0.00000009
11.05000000,0.00000010
11.06000000,0.00000010
11.07000000,0.00000011
11.08000000,0.00000011
11.09000000,0.00000012
11.10000000,0.00000013
11.11000000,0.00000008
11.12000000,0.00000007
11.13000000,0.00000007
11.14000000,0.00000006
11.15000000,0.00000005
11.16000000,0.00000005
11.17000000,0.00000004
11.18000000,0.00000004
11.19000000,0.00000003
11.20000000,0.00000003
11.21000000,0.00000003
11.22000000,0.00000003
11.23000000,0.00000002
11.24000000,0.00000002
11.25000000,0.00000002
11.26000000,0.00000002
11.27000000,0.00000002
11.28000000,0.00000002
11.29000000,0.00000002
11.30000000,0.00000002
11.31000000,0.00000002
11.32000000,0.00000002
11.33000000,0.00000002
11.34000000,0.00000002
11.35000000,0.00000002
11.36000000,0.00000002
11.37000000,0.00000002
11.38000000,0.00000002
11.39000000,0.00000002
11.40000000,0.00000002
11.41000000,0.00000002
11.42000000,0.00000002
11.43000000,0.00000002
11.44000000,0.00000002
11.45000000,0.00000002
11.46000000,0.00000002
11.47000000,0.00000002
11.48000000,0.00000002
11.49000000,0.00000002
11.50000000,0.00000002
11.51000000,0.00000002
11.52000000,0.00000002
11.53000000,0.00000002
11.54000000,0.00000002
11.55000000,0.00000002
11.56000000,0.00000002
11.57000000,0.00000002
11.58000000,0.00000002
11.59000000,0.00000002
11.60000000,0.00000002
11.61000000,0.00000002
11.62000000,0.00000002
11.63000000,0.00000003
11.64000000,0.00000003
11.65000000,0.00000003
11.66000000,0.00000003
11.67000000,0.00000003
11.68000000,0.00000003
11.69000000,0.00000003
11.70000000,0.00000003
11.71000000,0.00000003
11.72000000,0.00000003
11.73000000,0.00000003
11.74000000,0.00000003
11.75000000,0.00000003
11.76000000,0.00000003
11.77000000,0.00000003
11.78000000,0.00000003
11.79000000,0.00000003
11.80000000,0.00000004
11.81000000,0.00000004
11.82000000,0.00000004
11.83000000,0.00000004
11.84000000,0.00000004
11.85000000,0.00000004
11.86000000,0.00000004
11.87000000,0.00000004
11.88000000,0.00000004
11.89000000,0.00000004
11.90000000,0.00000004
11.91000000,0.00000004
11.92000000,0.00000004
11.93000000,0.00000005
11.94000000,0.00000005
11.95000000,0.00000005
11.96000000,0.00000005
11.97000000,0.00000005
11.98000000,0.00000005
11.99000000,0.00000005
12.00000000,0.00000005
12.01000000,0.00000005
12.02000000,0.00000005
12.03000000,0.00000005
12.04000000,0.00000005
12.05000000,0.00000005
12.06000000,0.00000005
12.07000000,0.00000005
12.08000000,0.00000005
12.09000000,0.00000005
12.10000000,0.00000005
12.11000000,0.00000005
12.12000000,0.00000005
12.13000000,0.00000005
12.14000000,0.00000005
12.15000000,0.00000005
12.16000000,0.00000005
12.17000000,0.00000005
12.18000000,0.00000005
12.19000000,0.00000005
12.20000000,0.00000005
12.21000000,0.00000005
12.22000000,0.00000005
12.23000000,0.00000005
12.24000000,0.00000005
12.25000000,0.00000005
12.26000000,0.00000005
12.27000000,0.00000005
12.28000000,0.00000005
12.29000000,0.00000005
12.30000000,0.00000005
12.31000000,0.00000005
12.32000000,0.00000005
12.33000000,0.00000005
12.34000000,0.00000005
12.35000000,0.00000005
12.36000000,0.00000005
12.37000000,0.00000005
12.38000000,0.00000005
12.39000000,0.00000005
12.40000000,0.00000005
12.41000000,0.00000005
12.42000000,0.00000005
12.43000000,0.00000005
12.44000000,0.00000005
12.45000000,0.00000005
12.46000000,0.00000004
12.47000000,0.00000004
12.48000000,0.00000004
12.49000000,0.00000004
12.50000000,0.00000004
12.51000000,0.00000004
12.52000000,0.00000004
12.53000000,0.00000004
12.54000000,0.00000004
12.55000000,0.00000004
12.56000000,0.00000004
12.57000000,0.00000004
12.58000000,0.00000004
12.59000000,0.00000004
12.60000000,0.00000004
12.61000000,0.00000004
12.62000000,0.00000004
12.63000000,0.00000003
12.64000000,0.00000003
12.65000000,0.00000003
12.66000000,0.00000003
12.67000000,0.00000003
12.68000000,0.00000003
12.69000000,0.00000003
12.70000000,0.00000003
12.71000000,0.00000003
12.72000000,0.00000003
12.73000000,0.00000003
12.74000000,0.00000003
12.75000000,0.00000003
12.76000000,0.00000003
12.77000000,0.00000003
12.78000000,0.00000003
12.79000000,0.00000003
12.80000000,0.00000003
12.81000000,0.00000003
12.82000000,0.00000003
12.83000000,0.00000003
12.84000000,0.00000004
12.85000000,0.00000004
12.86000000,0.00000004
12.87000000,0.00000005
12.88000000,0.00000005
12.89000000,0.00000005
12.90000000,0.00000006
12.91000000,0.00000007
12.92000000,0.00000007
12.93000000,0.00000008
12.94000000,0.00000009
12.95000000,0.00000010
12.96000000,0.00000012
12.97000000,0.00000014
12.98000000,0.00000015
12.99000000,0.00000017
13.00000000,0.00000020
13.01000000,0.00000023
13.02000000,0.00000028
13.03000000,0.00000034
13.04000000,0.00000037
13.05000000,0.00000040
13.06000000,0.00000045
13.07000000,0.00000050
13.08000000,0.00000056
13.09000000,0.00000065
13.10000000,0.00000060
13.11000000,0.00000070
13.12000000,0.00000070
13.13000000,0.00000069
13.14000000,0.00000068
13.15000000,0.00000067
13.16000000,0.00000066
13.17000000,0.00000064
13.18000000,0.00000061
13.19000000,0.00000058
13.20000000,0.00000039
13.21000000,0.00000104
13.22000000,0.00000105
13.23000000,0.00000106
13.24000000,0.00000106
13.25000000,0.00000107
13.26000000,0.00000107
13.27000000,0.00000107
13.28000000,0.00000107
13.29000000,0.00000107
13.30000000,0.00000108
13.31000000,0.00000108
13.32000000,0.00000108
13.33000000,0.00000107
13.34000000,0.00000107
13.35000000,0.00000103
13.36000000,0.00000109
13.37000000,0.00000109
13.38000000,0.00000105
13.39000000,0.00000106
13.40000000,0.00000106
13.41000000,0.00000108
13.42000000,0.00000108
13.43000000,0.00000108
13.44000000,0.00000104
13.45000000,0.00000105
13.46000000,0.00000109
13.47000000,0.00000109
13.48000000,0.00000109
13.49000000,0.00000109
13.50000000,0.00000109
13.51000000,0.00000110
13.52000000,0.00000110
13.53000000,0.00000111
13.54000000,0.00000112
13.55000000,0.00000112
13.56000000,0.00000113
13.57000000,0.00000113
13.58000000,0.00000111
13.59000000,0.00000112
13.60000000,0.00000113
13.61000000,0.00000112
13.62000000,0.00000115
13.63000000,0.00000115
13.64000000,0.00000115
13.65000000,0.00000112
13.66000000,0.00000113
13.67000000,0.00000114
13.68000000,0.00000114
13.69000000,0.00000114
13.70000000,0.00000114
13.71000000,0.00000113
13.72000000,0.00000114
13.73000000,0.00000114
13.74000000,0.00000115
13.75000000,0.00000115
13.76000000,0.00000115
13.77000000,0.00000114
13.78000000,0.00000116
13.79000000,0.00000116
13.80000000,0.00000116
13.81000000,0.00000116
13.82000000,0.00000117
13.83000000,0.00000117
13.84000000,0.00000117
13.85000000,0.00000118
13.86000000,0.00000118
13.87000000,0.00000118
13.88000000,0.00000118
13.89000000,0.00000119
13.90000000,0.00000119
13.91000000,0.00000119
13.92000000,0.00000118
13.93000000,0.00000119
13.94000000,0.00000119
13.95000000,0.00000117
13.96000000,0.00000120
13.97000000,0.00000120
13.98000000,0.00000121
13.99000000,0.00000121
14.00000000,0.00000121
14.01000000,0.00000120
14.02000000,0.00000121
14.03000000,0.00000121
14.04000000,0.00000122
14.05000000,0.00000122
14.06000000,0.00000122
14.07000000,0.00000123
14.08000000,0.00000121
14.09000000,0.00000122
14.10000000,0.00000123
14.11000000,0.00000122
14.12000000,0.00000121
14.13000000,0.00000121
14.14000000,0.00000119
14.15000000,0.00000119
14.16000000,0.00000119
14.17000000,0.00000119
14.18000000,0.00000117
14.19000000,0.00000119
14.20000000,0.00000118
14.21000000,0.00000116
14.22000000,0.00000117
14.23000000,0.00000117
14.24000000,0.00000117
14.25000000,0.00000117
14.26000000,0.00000118
14.27000000,0.00000118
14.28000000,0.00000118
14.29000000,0.00000118
14.30000000,0.00000117
14.31000000,0.00000117
14.32000000,0.00000117
14.33000000,0.00000118
14.34000000,0.00000118
14.35000000,0.00000118
14.36000000,0.00000118
14.37000000,0.00000119
14.38000000,0.00000120
14.39000000,0.00000120
14.40000000,0.00000121
14.41000000,0.00000121
14.42000000,0.00000121
14.43000000,0.00000122
14.44000000,0.00000119
14.45000000,0.00000121
14.46000000,0.00000124
14.47000000,0.00000124
14.48000000,0.00000125
14.49000000,0.00000125
14.50000000,0.00000125
14.51000000,0.00000127
14.52000000,0.00000128
14.53000000,0.00000129
14.54000000,0.00000129
14.55000000,0.00000128
14.56000000,0.00000131
14.57000000,0.00000132
14.58000000,0.00000132
14.59000000,0.00000135
14.60000000,0.00000136
14.61000000,0.00000137
14.62000000,0.00000138
14.63000000,0.00000138
14.64000000,0.00000138
14.65000000,0.00000141
14.66000000,0.00000142
14.67000000,0.00000144
14.68000000,0.00000145
14.69000000,0.00000145
14.70000000,0.00000146
14.71000000,0.00000146
14.72000000,0.00000147
14.73000000,0.00000148
14.74000000,0.00000149
14.75000000,0.00000150
14.76000000,0.00000151
14.77000000,0.00000150
14.78000000,0.00000152
14.79000000,0.00000153
14.80000000,0.00000153
14.81000000,0.00000154
14.82000000,0.00000155
14.83000000,0.00000155
14.84000000,0.00000155
14.85000000,0.00000155
14.86000000,0.00000157
14.87000000,0.00000158
14.88000000,0.00000158
14.89000000,0.00000158
14.90000000,0.00000157
14.91000000,0.00000156
14.92000000,0.00000157
14.93000000,0.00000157
14.94000000,0.00000155
14.95000000,0.00000158
14.96000000,0.00000159
14.97000000,0.00000159
14.98000000,0.00000159
14.99000000,0.00000159
15.00000000,0.00000159
15.01000000,0.00000159
15.02000000,0.00000159
15.03000000,0.00000160
15.04000000,0.00000160
15.05000000,0.00000160
15.06000000,0.00000160
15.07000000,0.00000161
15.08000000,0.00000161
15.09000000,0.00000160
15.10000000,0.00000160
15.11000000,0.00000158
15.12000000,0.00000159
15.13000000,0.00000157
15.14000000,0.00000159
15.15000000,0.00000159
15.16000000,0.00000159
15.17000000,0.00000159
15.18000000,0.00000158
15.19000000,0.00000156
15.20000000,0.00000158
15.21000000,0.00000158
15.22000000,0.00000158
15.23000000,0.00000158
15.24000000,0.00000158
15.25000000,0.00000157
15.26000000,0.00000157
15.27000000,0.00000158
15.28000000,0.00000158
15.29000000,0.00000158
15.30000000,0.00000158
15.31000000,0.00000156
15.32000000,0.00000156
15.33000000,0.00000156
15.34000000,0.00000154
15.35000000,0.00000158
15.36000000,0.00000158
15.37000000,0.00000159
15.38000000,0.00000156
15.39000000,0.00000157
15.40000000,0.00000157
15.41000000,0.00000156
15.42000000,0.00000157
15.43000000,0.00000158
15.44000000,0.00000159
15.45000000,0.00000159
15.46000000,0.00000160
15.47000000,0.00000160
15.48000000,0.00000159
15.49000000,0.00000164
15.50000000,0.00000165
15.51000000,0.00000166
15.52000000,0.00000163
15.53000000,0.00000165
15.54000000,0.00000167
15.55000000,0.00000169
15.56000000,0.00000170
15.57000000,0.00000171
15.58000000,0.00000171
15.59000000,0.00000177
15.60000000,0.00000178
15.61000000,0.00000179
15.62000000,0.00000181
15.63000000,0.00000182
15.64000000,0.00000183
15.65000000,0.00000182
15.66000000,0.00000184
15.67000000,0.00000185
15.68000000,0.00000186
15.69000000,0.00000188
15.70000000,0.00000189
15.71000000,0.00000191
15.72000000,0.00000192
15.73000000,0.00000193
15.74000000,0.00000194
15.75000000,0.00000195
15.76000000,0.00000195
15.77000000,0.00000195
15.78000000,0.00000200
15.79000000,0.00000201
15.80000000,0.00000202
15.81000000,0.00000203
15.82000000,0.00000198
15.83000000,0.00000201
15.84000000,0.00000201
15.85000000,0.00000207
15.86000000,0.00000208
15.87000000,0.00000209
15.88000000,0.00000210
15.89000000,0.00000211
15.90000000,0.00000212
15.91000000,0.00000213
15.92000000,0.00000209
15.93000000,0.00000211
15.94000000,0.00000212
15.95000000,0.00000211
15.96000000,0.00000218
15.97000000,0.00000219
15.98000000,0.00000220
15.99000000,0.00000221
16.00000000,0.00000222
16.01000000,0.00000223
16.02000000,0.00000224
16.03000000,0.00000225
16.04000000,0.00000226
16.05000000,0.00000228
16.06000000,0.00000229
16.07000000,0.00000230
16.08000000,0.00000231
16.09000000,0.00000229
16.10000000,0.00000232
16.11000000,0.00000233
16.12000000,0.00000236
16.13000000,0.00000237
16.14000000,0.00000237
16.15000000,0.00000240
16.16000000,0.00000240
16.17000000,0.00000240
16.18000000,0.00000242
16.19000000,0.00000242
16.20000000,0.00000243
16.21000000,0.00000243
16.22000000,0.00000247
16.23000000,0.00000248
16.24000000,0.00000249
16.25000000,0.00000250
16.26000000,0.00000250
16.27000000,0.00000253
16.28000000,0.00000252
16.29000000,0.00000252
16.30000000,0.00000251
16.31000000,0.00000248
16.32000000,0.00000252
16.33000000,0.00000252
16.34000000,0.00000252
16.35000000,0.00000250
16.36000000,0.00000252
16.37000000,0.00000253
16.38000000,0.00000252
16.39000000,0.00000253
16.40000000,0.00000253
16.41000000,0.00000253
16.42000000,0.00000253
16.43000000,0.00000256
16.44000000,0.00000257
16.45000000,0.00000257
16.46000000,0.00000257
16.47000000,0.00000258
16.48000000,0.00000258
16.49000000,0.00000258
16.50000000,0.00000261
16.51000000,0.00000261
16.52000000,0.00000261
16.53000000,0.00000262
16.54000000,0.00000265
16.55000000,0.00000265
16.56000000,0.00000267
16.57000000,0.00000268
16.58000000,0.00000268
16.59000000,0.00000271
16.60000000,0.00000273
16.61000000,0.00000275
16.62000000,0.00000274
16.63000000,0.00000274
16.64000000,0.00000278
16.65000000,0.00000280
16.66000000,0.00000279
16.67000000,0.00000282
16.68000000,0.00000283
16.69000000,0.00000288
16.70000000,0.00000290
16.71000000,0.00000292
16.72000000,0.00000295
16.73000000,0.00000298
16.74000000,0.00000300
16.75000000,0.00000302
16.76000000,0.00000305
16.77000000,0.00000307
16.78000000,0.00000310
16.79000000,0.00000312
16.80000000,0.00000317
16.81000000,0.00000319
16.82000000,0.00000319
16.83000000,0.00000325
16.84000000,0.00000330
16.85000000,0.00000333
16.86000000,0.00000335
16.87000000,0.00000341
16.88000000,0.00000343
16.89000000,0.00000346
16.90000000,0.00000353
16.91000000,0.00000358
16.92000000,0.00000363
16.93000000,0.00000366
16.94000000,0.00000368
16.95000000,0.00000373
16.96000000,0.00000375
16.97000000,0.00000381
16.98000000,0.00000387
16.99000000,0.00000390
17.00000000,0.00000396
17.01000000,0.00000399
17.02000000,0.00000405
17.03000000,0.00000410
17.04000000,0.00000412
17.05000000,0.00000417
17.06000000,0.00000421
17.07000000,0.00000426
17.08000000,0.00000429
17.09000000,0.00000436
17.10000000,0.00000443
17.11000000,0.00000450
17.12000000,0.00000455
17.13000000,0.00000456
17.14000000,0.00000458
17.15000000,0.00000460
17.16000000,0.00000466
17.17000000,0.00000471
17.18000000,0.00000487
17.19000000,0.00000495
17.20000000,0.00000503
17.21000000,0.00000507
17.22000000,0.00000510
17.23000000,0.00000515
17.24000000,0.00000516
17.25000000,0.00000507
17.26000000,0.00000510
17.27000000,0.00000513
17.28000000,0.00000519
17.29000000,0.00000522
17.30000000,0.00000526
17.31000000,0.00000541
17.32000000,0.00000554
17.33000000,0.00000559
17.34000000,0.00000561
17.35000000,0.00000558
17.36000000,0.00000551
17.37000000,0.00000554
17.38000000,0.00000558
17.39000000,0.00000564
17.40000000,0.00000582
17.41000000,0.00000592
17.42000000,0.00000597
17.43000000,0.00000591
17.44000000,0.00000588
17.45000000,0.00000594
17.46000000,0.00000612
17.47000000,0.00000630
17.48000000,0.00000641
17.49000000,0.00000649
17.50000000,0.00000656
17.51000000,0.00000662
17.52000000,0.00000669
17.53000000,0.00000678
17.54000000,0.00000686
17.55000000,0.00000693
17.56000000,0.00000682
17.57000000,0.00000693
17.58000000,0.00000706
17.59000000,0.00000720
17.60000000,0.00000741
17.61000000,0.00000769
17.62000000,0.00000787
17.63000000,0.00000804
17.64000000,0.00000817
17.65000000,0.00000834
17.66000000,0.00000849
17.67000000,0.00000864
17.68000000,0.00000884
17.69000000,0.00000902
17.70000000,0.00000923
17.71000000,0.00000939
17.72000000,0.00000947
17.73000000,0.00000971
17.74000000,0.00000995
17.75000000,0.00001021
17.76000000,0.00001048
17.77000000,0.00001082
17.78000000,0.00001138
17.79000000,0.00001187
17.80000000,0.00001232
17.81000000,0.00001273
17.82000000,0.00001314
17.83000000,0.00001353
17.84000000,0.00001397
17.85000000,0.00001445
17.86000000,0.00001497
17.87000000,0.00001555
17.88000000,0.00001618
17.89000000,0.00001692
17.90000000,0.00001772
17.91000000,0.00001855
17.92000000,0.00001930
17.93000000,0.00002031
17.94000000,0.00002152
17.95000000,0.00002274
17.96000000,0.00002456
17.97000000,0.00002639
17.98000000,0.00002831
17.99000000,0.00003068
18.00000000,0.00003299
18.01000000,0.00003548
18.02000000,0.00003755
18.03000000,0.00003954
18.04000000,0.00004296
18.05000000,0.00004635
18.06000000,0.00005020
18.07000000,0.00005473
18.08000000,0.00005989
18.09000000,0.00006649
18.10000000,0.00007332
18.11000000,0.00008413
18.12000000,0.00009696
18.13000000,0.00011342
18.14000000,0.00011345
18.15000000,0.00011705
18.16000000,0.00011485
18.17000000,0.00011223
18.18000000,0.00010875
18.19000000,0.00010504
18.20000000,0.00010054
18.21000000,0.00009654
18.22000000,0.00006926
18.23000000,0.00008389
18.24000000,0.00009002
18.25000000,0.00009280
18.26000000,0.00009239
18.27000000,0.00006740
18.28000000,0.00003317
18.29000000,0.00004073
18.30000000,0.00003198
18.31000000,0.00002556
18.32000000,0.00002068
18.33000000,0.00001689
18.34000000,0.00001413
18.35000000,0.00001200
18.36000000,0.00001034
18.37000000,0.00000908
18.38000000,0.00000639
18.39000000,0.00000765
18.40000000,0.00000560
18.41000000,0.00000638
18.42000000,0.00000733
18.43000000,0.00000796
18.44000000,0.00000818
18.45000000,0.00000777
18.46000000,0.00000668
18.47000000,0.00000509
18.48000000,0.00000345
18.49000000,0.00000369
18.50000000,0.00000653
18.51000000,0.00000969
18.52000000,0.00001236
18.53000000,0.00001409
18.54000000,0.00001414
18.55000000,0.00001156
18.56000000,0.00000247
18.57000000,0.00000120
18.58000000,0.00000128
18.59000000,0.00000137
18.60000000,0.00000147
18.61000000,0.00000158
18.62000000,0.00001370
18.63000000,0.00002080
18.64000000,0.00002390
18.65000000,0.00002310
18.66000000,0.00001845
18.67000000,0.00000763
18.68000000,0.00000256
18.69000000,0.00000269
18.70000000,0.00000279
18.71000000,0.00000647
18.72000000,0.00002054
18.73000000,0.00002984
18.74000000,0.00003698
18.75000000,0.00004237
18.76000000,0.00004648
18.77000000,0.00004955
18.78000000,0.00005150
18.79000000,0.00005250
18.80000000,0.00005256
18.81000000,0.00005194
18.82000000,0.00005085
18.83000000,0.00004971
18.84000000,0.00004959
18.85000000,0.00005082
18.86000000,0.00005316
18.87000000,0.00005663
18.88000000,0.00006104
18.89000000,0.00006534
18.90000000,0.00007032
18.91000000,0.00007551
18.92000000,0.00008109
18.93000000,0.00008623
18.94000000,0.00009120
18.95000000,0.00009568
18.96000000,0.00009877
18.97000000,0.00010039
18.98000000,0.00009822
18.99000000,0.00009094
19.00000000,0.00007628
19.01000000,0.00004953
19.02000000,0.00002548
19.03000000,0.00002774
19.04000000,0.00003022
19.05000000,0.00005465
19.06000000,0.00010264
19.07000000,0.00034272
19.08000000,0.00080407
19.09000000,0.00149780
19.10000000,0.00206290
19.11000000,0.00250770
19.12000000,0.00264330
19.13000000,0.00269800
19.14000000,0.00259060
19.15000000,0.00242550
19.16000000,0.00214090
19.17000000,0.00175870
19.18000000,0.00129640
19.19000000,0.00070530
19.20000000,0.00030828
19.21000000,0.00017639
19.22000000,0.00006786
19.23000000,0.00016438
19.24000000,0.00018023
19.25000000,0.00016369
19.26000000,0.00030085
19.27000000,0.00042705
19.28000000,0.00054617
19.29000000,0.00065490
19.30000000,0.00015095
19.31000000,0.00074550
19.32000000,0.00081569
19.33000000,0.00092268
19.34000000,0.00105300
19.35000000,0.00122650
19.36000000,0.00140290
19.37000000,0.00177620
19.38000000,0.00220900
19.39000000,0.00296420
19.40000000,0.00386720
19.41000000,0.00479120
19.42000000,0.00563440
19.43000000,0.00633930
19.44000000,0.00685120
19.45000000,0.00731520
19.46000000,0.00764930
19.47000000,0.00797760
19.48000000,0.00823350
19.49000000,0.00848670
19.50000000,0.00885540
19.51000000,0.00930660
19.52000000,0.00999230
19.53000000,0.01091600
19.54000000,0.01208100
19.55000000,0.01364900
19.56000000,0.01541400
19.57000000,0.01788700
19.58000000,0.02050000
19.59000000,0.02404400
19.60000000,0.02777700
19.61000000,0.03249400
19.62000000,0.03736900
19.63000000,0.04286000
19.64000000,0.04896900
19.65000000,0.05600200
19.66000000,0.06365400
19.67000000,0.07192700
19.68000000,0.08143400
19.69000000,0.09156400
19.70000000,0.10413000
19.71000000,0.11701000
19.72000000,0.13261000
19.73000000,0.14887000
19.74000000,0.16785000
19.75000000,0.18713000
19.76000000,0.20858000
19.77000000,0.23132000
19.78000000,0.25558000
19.79000000,0.28203000
19.80000000,0.30928000
19.81000000,0.34337000
19.82000000,0.37719000
19.83000000,0.41444000
19.84000000,0.45142000
19.85000000,0.48874000
19.86000000,0.52610000
19.87000000,0.55731000
19.88000000,0.58855000
19.89000000,0.61704000
19.90000000,0.64245000
19.91000000,0.66479000
19.92000000,0.68715000
19.93000000,0.70612000
19.94000000,0.72541000
19.95000000,0.74131000
19.96000000,0.75443000
19.97000000,0.76103000
19.98000000,0.76794000
19.99000000,0.76833000
20.00000000,0.76902000
20.01000000,0.76629000
20.02000000,0.76667000
20.03000000,0.76737000
20.04000000,0.76775000
20.05000000,0.77126000
20.06000000,0.77508000
20.07000000,0.77859000
20.08000000,0.78211000
20.09000000,0.78562000
20.10000000,0.78601000
20.11000000,0.78672000
20.12000000,0.79024000
20.13000000,0.79691000
20.14000000,0.80671000
20.15000000,0.81653000
20.16000000,0.82949000
20.17000000,0.83933000
20.18000000,0.84886000
20.19000000,0.85556000
20.20000000,0.85599000
20.21000000,0.85956000
20.22000000,0.85684000
20.23000000,0.85726000
20.24000000,0.85453000
20.25000000,0.85180000
20.26000000,0.84938000
20.27000000,0.84980000
20.28000000,0.84390000
20.29000000,0.83800000
20.30000000,0.83209000
20.31000000,0.82617000
20.32000000,0.82025000
20.33000000,0.81749000
20.34000000,0.81789000
20.35000000,0.81829000
20.36000000,0.82472000
20.37000000,0.83147000
20.38000000,0.84140000
20.39000000,0.84816000
20.40000000,0.85493000
20.41000000,0.85853000
20.42000000,0.86213000
20.43000000,0.86573000
20.44000000,0.86934000
20.45000000,0.87614000
20.46000000,0.88294000
20.47000000,0.89293000
20.48000000,0.89975000
20.49000000,0.90976000
20.50000000,0.91020000
20.51000000,0.91384000
20.52000000,0.91109000
20.53000000,0.90834000
20.54000000,0.90238000
20.55000000,0.89962000
20.56000000,0.89686000
20.57000000,0.89409000
20.58000000,0.89453000
20.59000000,0.89496000
20.60000000,0.89219000
20.61000000,0.88941000
20.62000000,0.88663000
20.63000000,0.88064000
20.64000000,0.87785000
20.65000000,0.87184000
20.66000000,0.87226000
20.67000000,0.87590000
20.68000000,0.88277000
20.69000000,0.89286000
20.70000000,0.89974000
20.71000000,0.90663000
20.72000000,0.91029000
20.73000000,0.91073000
20.74000000,0.90794000
20.75000000,0.90192000
20.76000000,0.89588000
20.77000000,0.88985000
20.78000000,0.88380000
20.79000000,0.88423000
20.80000000,0.88465000
20.81000000,0.88832000
20.82000000,0.88875000
20.83000000,0.89242000
20.84000000,0.89609000
20.85000000,0.89652000
20.86000000,0.89370000
20.87000000,0.89413000
20.88000000,0.89456000
20.89000000,0.89499000
20.90000000,0.89867000
20.91000000,0.89910000
20.92000000,0.90279000
20.93000000,0.90322000
20.94000000,0.90365000
20.95000000,0.89756000
20.96000000,0.89146000
20.97000000,0.88535000
20.98000000,0.87597000
20.99000000,0.86658000
21.00000000,0.86373000
21.01000000,0.85759000
21.02000000,0.86127000
21.03000000,0.86168000
21.04000000,0.86865000
21.05000000,0.87562000
21.06000000,0.87931000
21.07000000,0.88629000
21.08000000,0.89328000
21.09000000,0.89699000
21.10000000,0.90398000
21.11000000,0.91099000
21.12000000,0.91800000
21.13000000,0.92830000
21.14000000,0.93862000
21.15000000,0.94862000
21.16000000,0.95895000
21.17000000,0.96600000
21.18000000,0.97305000
21.19000000,0.97351000
21.20000000,0.97397000
21.21000000,0.97443000
21.22000000,0.97489000
21.23000000,0.97865000
21.24000000,0.97912000
21.25000000,0.98289000
21.26000000,0.98997000
21.27000000,0.99375000
21.28000000,0.99422000
21.29000000,0.99468000
21.30000000,0.98852000
21.31000000,0.98234000
21.32000000,0.97284000
21.33000000,0.96001000
21.34000000,0.95381000
21.35000000,0.94429000
21.36000000,0.93808000
21.37000000,0.93519000
21.38000000,0.93230000
21.39000000,0.92940000
21.40000000,0.92650000
21.41000000,0.92360000
21.42000000,0.92070000
21.43000000,0.91445000
21.44000000,0.91154000
21.45000000,0.90862000
21.46000000,0.90905000
21.47000000,0.91616000
21.48000000,0.92328000
21.49000000,0.93375000
21.50000000,0.94757000
21.51000000,0.96141000
21.52000000,0.97191000
21.53000000,0.98243000
21.54000000,0.98959000
21.55000000,0.99341000
21.56000000,0.99722000
21.57000000,0.99769000
21.58000000,0.99815000
21.59000000,0.99861000
21.60000000,0.99907000
21.61000000,0.99954000
21.62000000,1.00000000
21.63000000,0.99373000
21.64000000,0.99081000
21.65000000,0.98116000
21.66000000,0.96812000
21.67000000,0.95507000
21.68000000,0.93862000
21.69000000,0.92217000
21.70000000,0.90908000
21.71000000,0.89935000
21.72000000,0.89300000
21.73000000,0.88664000
21.74000000,0.88705000
21.75000000,0.88746000
21.76000000,0.88787000
21.77000000,0.89167000
21.78000000,0.89208000
21.79000000,0.89248000
21.80000000,0.89289000
21.81000000,0.89670000
21.82000000,0.90391000
21.83000000,0.91112000
21.84000000,0.92514000
21.85000000,0.93578000
21.86000000,0.95289000
21.87000000,0.97035000
21.88000000,0.98102000
21.89000000,0.99169000
21.90000000,0.99897000
21.91000000,0.99601000
21.92000000,0.99305000
21.93000000,0.98667000
21.94000000,0.97687000
21.95000000,0.97048000
21.96000000,0.96408000
21.97000000,0.95768000
21.98000000,0.95469000
21.99000000,0.95170000
22.00000000,0.94871000
22.01000000,0.94914000
22.02000000,0.94614000
22.03000000,0.94314000
22.04000000,0.93671000
22.05000000,0.93370000
22.06000000,0.92725000
22.07000000,0.92079000
22.08000000,0.91812000
22.09000000,0.91509000
22.10000000,0.91207000
22.11000000,0.91248000
22.12000000,0.90945000
22.13000000,0.90986000
22.14000000,0.90682000
22.15000000,0.90033000
22.16000000,0.89729000
22.17000000,0.89079000
22.18000000,0.88428000
22.19000000,0.88122000
22.20000000,0.87470000
22.21000000,0.87164000
22.22000000,0.87203000
22.23000000,0.87242000
22.24000000,0.87282000
22.25000000,0.87321000
22.26000000,0.87014000
22.27000000,0.86706000
22.28000000,0.86398000
22.29000000,0.85742000
22.30000000,0.85086000
22.31000000,0.84429000
22.32000000,0.83424000
22.33000000,0.83114000
22.34000000,0.82455000
22.35000000,0.82144000
22.36000000,0.82181000
22.37000000,0.81869000
22.38000000,0.81557000
22.39000000,0.81245000
22.40000000,0.80584000
22.41000000,0.79922000
22.42000000,0.78910000
22.43000000,0.77548000
22.44000000,0.76185000
22.45000000,0.74820000
22.46000000,0.73454000
22.47000000,0.72437000
22.48000000,0.71769000
22.49000000,0.71101000
22.50000000,0.70782000
22.51000000,0.70813000
22.52000000,0.70494000
22.53000000,0.70174000
22.54000000,0.69855000
22.55000000,0.69534000
22.56000000,0.68863000
22.57000000,0.68542000
22.58000000,0.68220000
22.59000000,0.67899000
22.60000000,0.67929000
22.61000000,0.67959000
22.62000000,0.68693000
22.63000000,0.69076000
22.64000000,0.69812000
22.65000000,0.70195000
22.66000000,0.70932000
22.67000000,0.70964000
22.68000000,0.70995000
22.69000000,0.71026000
22.70000000,0.70704000
22.71000000,0.70381000
22.72000000,0.70412000
22.73000000,0.70443000
22.74000000,0.70474000
22.75000000,0.70860000
22.76000000,0.71245000
22.77000000,0.71631000
22.78000000,0.72017000
22.79000000,0.72049000
22.80000000,0.71726000
22.81000000,0.71757000
22.82000000,0.71078000
22.83000000,0.70398000
22.84000000,0.69362000
22.85000000,0.68680000
22.86000000,0.67998000
22.87000000,0.67672000
22.88000000,0.67345000
22.89000000,0.67374000
22.90000000,0.67404000
22.91000000,0.67790000
22.92000000,0.67820000
22.93000000,0.68206000
22.94000000,0.68593000
22.95000000,0.68588000
22.96000000,0.68617000
22.97000000,0.68647000
22.98000000,0.69035000
22.99000000,0.69065000
23.00000000,0.69812000
23.01000000,0.70200000
23.02000000,0.70948000
23.03000000,0.71696000
23.04000000,0.72445000
23.05000000,0.72835000
23.06000000,0.73226000
23.07000000,0.73258000
23.08000000,0.72930000
23.09000000,0.72962000
23.10000000,0.72633000
23.11000000,0.71945000
23.12000000,0.71616000
23.13000000,0.71287000
23.14000000,0.70993000
23.15000000,0.70663000
23.16000000,0.70694000
23.17000000,0.70364000
23.18000000,0.69672000
23.19000000,0.69341000
23.20000000,0.68648000
23.21000000,0.67593000
23.22000000,0.66899000
23.23000000,0.65481000
23.24000000,0.64062000
23.25000000,0.63003000
23.26000000,0.61581000
23.27000000,0.60520000
23.28000000,0.59459000
23.29000000,0.58759000
23.30000000,0.58058000
23.31000000,0.57720000
23.32000000,0.57019000
23.33000000,0.56316000
23.34000000,0.55977000
23.35000000,0.55274000
23.36000000,0.54570000
23.37000000,0.53865000
23.38000000,0.53160000
23.39000000,0.52454000
23.40000000,0.51748000
23.41000000,0.51405000
23.42000000,0.51063000
23.43000000,0.50719000
23.44000000,0.50376000
23.45000000,0.50398000
23.46000000,0.50054000
23.47000000,0.49710000
23.48000000,0.49365000
23.49000000,0.48654000
23.50000000,0.47943000
23.51000000,0.47231000
23.52000000,0.46519000
23.53000000,0.45439000
23.54000000,0.44725000
23.55000000,0.44378000
23.56000000,0.43663000
23.57000000,0.43314000
23.58000000,0.43332000
23.59000000,0.42983000
23.60000000,0.43002000
23.61000000,0.43388000
23.62000000,0.43406000
23.63000000,0.43424000
23.64000000,0.43443000
23.65000000,0.43461000
23.66000000,0.43480000
23.67000000,0.43498000
23.68000000,0.43516000
23.69000000,0.43535000
23.70000000,0.43922000
23.71000000,0.43941000
23.72000000,0.44329000
23.73000000,0.44717000
23.74000000,0.45105000
23.75000000,0.45124000
23.76000000,0.45143000
23.77000000,0.45162000
23.78000000,0.45181000
23.79000000,0.44830000
23.80000000,0.44849000
23.81000000,0.44497000
23.82000000,0.44515000
23.83000000,0.44163000
23.84000000,0.44182000
23.85000000,0.44572000
23.86000000,0.44590000
23.87000000,0.44981000
23.88000000,0.45743000
23.89000000,0.46134000
23.90000000,0.46898000
23.91000000,0.47290000
23.92000000,0.47682000
23.93000000,0.48075000
23.94000000,0.48468000
23.95000000,0.48861000
23.96000000,0.49255000
23.97000000,0.49275000
23.98000000,0.49669000
23.99000000,0.50064000
24.00000000,0.50458000
24.01000000,0.50853000
24.02000000,0.51623000
24.03000000,0.52018000
24.04000000,0.52789000
24.05000000,0.53560000
24.06000000,0.53957000
24.07000000,0.54354000
24.08000000,0.54377000
24.09000000,0.54774000
24.10000000,0.54797000
24.11000000,0.54820000
24.12000000,0.54843000
24.13000000,0.54865000
24.14000000,0.54888000
24.15000000,0.54911000
24.16000000,0.55310000
24.17000000,0.55709000
24.18000000,0.56109000
24.19000000,0.56509000
24.20000000,0.56909000
24.21000000,0.56932000
24.22000000,0.56956000
24.23000000,0.56979000
24.24000000,0.56625000
24.25000000,0.56649000
24.26000000,0.56294000
24.27000000,0.55940000
24.28000000,0.55585000
24.29000000,0.55607000
24.30000000,0.55252000
24.31000000,0.55275000
24.32000000,0.55676000
24.33000000,0.56078000
24.34000000,0.56101000
24.35000000,0.56503000
24.36000000,0.56526000
24.37000000,0.56929000
24.38000000,0.56953000
24.39000000,0.56976000
24.40000000,0.56999000
24.41000000,0.56642000
24.42000000,0.56666000
24.43000000,0.56308000
24.44000000,0.56331000
24.45000000,0.56354000
24.46000000,0.55997000
24.47000000,0.56019000
24.48000000,0.56042000
24.49000000,0.55684000
24.50000000,0.55707000
24.51000000,0.55348000
24.52000000,0.54988000
24.53000000,0.54285000
24.54000000,0.53925000
24.55000000,0.53182000
24.56000000,0.52439000
24.57000000,0.51695000
24.58000000,0.50950000
24.59000000,0.50205000
24.60000000,0.49459000
24.61000000,0.49096000
24.62000000,0.48733000
24.63000000,0.48369000
24.64000000,0.48389000
24.65000000,0.48408000
24.66000000,0.48044000
24.67000000,0.48063000
24.68000000,0.48083000
24.69000000,0.47718000
24.70000000,0.47352000
24.71000000,0.47372000
24.72000000,0.47006000
24.73000000,0.46255000
24.74000000,0.45888000
24.75000000,0.45521000
24.76000000,0.45154000
24.77000000,0.45172000
24.78000000,0.44804000
24.79000000,0.44823000
24.80000000,0.44841000
24.81000000,0.44859000
24.82000000,0.44877000
24.83000000,0.44508000
24.84000000,0.44526000
24.85000000,0.44157000
24.86000000,0.43788000
24.87000000,0.43418000
24.88000000,0.42660000
24.89000000,0.42290000
24.90000000,0.41919000
24.91000000,0.41548000
24.92000000,0.41177000
24.93000000,0.40805000
24.94000000,0.40821000
24.95000000,0.40449000
24.96000000,0.40077000
24.97000000,0.40093000
24.98000000,0.39720000
24.99000000,0.39346000
25.00000000,0.38934000
25.01000000,0.38529000
25.02000000,0.37921000
25.03000000,0.37277000
25.04000000,0.36629000
25.05000000,0.35945000
25.06000000,0.35261000
25.07000000,0.34572000
25.08000000,0.34004000
25.09000000,0.33514000
25.10000000,0.33023000
25.11000000,0.32645000
25.12000000,0.32345000
25.13000000,0.32045000
25.14000000,0.31780000
25.15000000,0.31553000
25.16000000,0.31327000
25.17000000,0.31100000
25.18000000,0.30916000
25.19000000,0.30693000
25.20000000,0.30509000
25.21000000,0.30329000
25.22000000,0.30188000
25.23000000,0.30047000
25.24000000,0.29984000
25.25000000,0.29921000
25.26000000,0.29897000
25.27000000,0.29949000
25.28000000,0.30000000
25.29000000,0.30012000
25.30000000,0.30024000
25.31000000,0.30036000
25.32000000,0.30008000
25.33000000,0.29823000
25.34000000,0.29673000
25.35000000,0.29447000
25.36000000,0.29143000
25.37000000,0.28834000
25.38000000,0.28530000
25.39000000,0.28225000
25.40000000,0.27915000
25.41000000,0.27649000
25.42000000,0.27423000
25.43000000,0.27196000
25.44000000,0.26969000
25.45000000,0.26742000
25.46000000,0.26439000
25.47000000,0.26172000
25.48000000,0.25749000
25.49000000,0.25247000
25.50000000,0.24781000
25.51000000,0.24198000
25.52000000,0.23536000
25.53000000,0.22913000
25.54000000,0.22290000
25.55000000,0.21745000
25.56000000,0.21201000
25.57000000,0.20731000
25.58000000,0.20425000
25.59000000,0.20154000
25.60000000,0.19886000
25.61000000,0.19695000
25.62000000,0.19503000
25.63000000,0.19315000
25.64000000,0.19003000
25.65000000,0.18615000
25.66000000,0.18267000
25.67000000,0.17758000
25.68000000,0.17173000
25.69000000,0.16548000
25.70000000,0.15918000
25.71000000,0.15247000
25.72000000,0.14580000
25.73000000,0.13949000
25.74000000,0.13473000
25.75000000,0.12957000
25.76000000,0.12521000
25.77000000,0.12333000
25.78000000,0.12141000
25.79000000,0.11953000
25.80000000,0.11966000
25.81000000,0.11982000
25.82000000,0.12035000
25.83000000,0.12128000
25.84000000,0.12258000
25.85000000,0.12432000
25.86000000,0.12561000
25.87000000,0.12763000
25.88000000,0.12930000
25.89000000,0.13132000
25.90000000,0.13331000
25.91000000,0.13530000
25.92000000,0.13733000
25.93000000,0.13855000
25.94000000,0.14018000
25.95000000,0.14145000
25.96000000,0.14191000
25.97000000,0.14232000
25.98000000,0.14242000
25.99000000,0.14207000
26.00000000,0.14095000
26.01000000,0.13942000
26.02000000,0.13794000
26.03000000,0.13560000
26.04000000,0.13330000
26.05000000,0.13100000
26.06000000,0.12833000
26.07000000,0.12562000
26.08000000,0.12294000
26.09000000,0.12068000
26.10000000,0.11840000
26.11000000,0.11617000
26.12000000,0.11394000
26.13000000,0.11174000
26.14000000,0.10987000
26.15000000,0.10760000
26.16000000,0.10531000
26.17000000,0.10299000
26.18000000,0.10034000
26.19000000,0.09719600
26.20000000,0.09396900
26.21000000,0.09082100
26.22000000,0.08758900
26.23000000,0.08468100
26.24000000,0.08177100
26.25000000,0.07922700
26.26000000,0.07786600
26.27000000,0.07683200
26.28000000,0.07547000
26.29000000,0.07615400
26.30000000,0.07651000
26.31000000,0.07723600
26.32000000,0.07808500
26.33000000,0.07897600
26.34000000,0.07986700
26.35000000,0.08034900
26.36000000,0.08079000
26.37000000,0.08086200
26.38000000,0.08093400
26.39000000,0.08096400
26.40000000,0.08062500
26.41000000,0.08024400
26.42000000,0.08031600
26.43000000,0.08034600
26.44000000,0.08037700
26.45000000,0.08044800
26.46000000,0.08056100
26.47000000,0.08067400
26.48000000,0.08074600
26.49000000,0.07966200
26.50000000,0.07861900
26.51000000,0.07753400
26.52000000,0.07574600
26.53000000,0.07308900
26.54000000,0.07043000
26.55000000,0.06781000
26.56000000,0.06510600
26.57000000,0.06202700
26.58000000,0.05927700
26.59000000,0.05615200
26.60000000,0.05364600
26.61000000,0.05084800
26.62000000,0.04809000
26.63000000,0.04528800
26.64000000,0.04252500
26.65000000,0.03971900
26.66000000,0.03704300
26.67000000,0.03437000
26.68000000,0.03162000
26.69000000,0.02959100
26.70000000,0.02929800
26.71000000,0.02867300
26.72000000,0.02757200
26.73000000,0.09978300
26.74000000,0.11111000
26.75000000,0.11090000
26.76000000,0.11211000
26.77000000,0.10844000
26.78000000,0.10477000
26.79000000,0.10147000
26.80000000,0.09816600
26.81000000,0.09486200
26.82000000,0.09164000
26.83000000,0.08795500
26.84000000,0.08410000
26.85000000,0.08041000
26.86000000,0.07688500
26.87000000,0.07348200
26.88000000,0.07032800
26.89000000,0.06725500
26.90000000,0.06430600
26.91000000,0.06156400
26.92000000,0.05890300
26.93000000,0.05636700
26.94000000,0.05395400
26.95000000,0.05154000
26.96000000,0.04925000
26.97000000,0.04708400
26.98000000,0.04495900
26.99000000,0.04287400
27.00000000,0.04035400
27.01000000,0.03744600
27.02000000,0.03455600
27.03000000,0.03029600
27.04000000,0.01852500
27.05000000,0.01985800
27.06000000,0.02139100
27.07000000,0.02319900
27.08000000,0.02452800
27.09000000,0.02587900
27.10000000,0.02724700
27.11000000,0.02818600
27.12000000,0.02868200
27.13000000,0.02908600
27.14000000,0.02951500
27.15000000,0.02938200
27.16000000,0.02926600
27.17000000,0.02912900
27.18000000,0.02884700
27.19000000,0.02848100
27.20000000,0.02816100
27.21000000,0.02786200
27.22000000,0.02727900
27.23000000,0.02655100
27.24000000,0.02590300
27.25000000,0.02501300
27.26000000,0.02324800
27.27000000,0.02149400
27.28000000,0.01984500
27.29000000,0.01746800
27.30000000,0.01485900
27.31000000,0.01249600
27.32000000,0.01018600
27.33000000,0.00607790
27.34000000,0.00361360
27.35000000,0.00219060
27.36000000,0.00169460
27.37000000,0.00026696
27.38000000,0.00044431
27.39000000,0.00037452
27.40000000,0.00031483
27.41000000,0.00026607
27.42000000,0.00022355
27.43000000,0.00018877
27.44000000,0.00015948
27.45000000,0.00013389
27.46000000,0.00011260
27.47000000,0.00009472
27.48000000,0.00007964
27.49000000,0.00006687
27.50000000,0.00005632
27.51000000,0.00004734
27.52000000,0.00003976
27.53000000,0.00003342
27.54000000,0.00003035
27.55000000,0.00002842
27.56000000,0.00002658
27.57000000,0.00002489
27.58000000,0.00002320
27.59000000,0.00002174
27.60000000,0.00002036
27.61000000,0.00001906
27.62000000,0.00001783
27.63000000,0.00001669
27.64000000,0.00001562
27.65000000,0.00001455
27.66000000,0.00001361
27.67000000,0.00001272
27.68000000,0.00001191
27.69000000,0.00001111
27.70000000,0.00001037
27.71000000,0.00000971
27.72000000,0.00002061
27.73000000,0.00003103
27.74000000,0.00007474
27.75000000,0.00037836
27.76000000,0.00347150
27.77000000,0.00462320
27.78000000,0.00606120
27.79000000,0.00778590
27.80000000,0.00911350
27.81000000,0.00946320
27.82000000,0.00971790
27.83000000,0.01006800
27.84000000,0.01017600
27.85000000,0.01020100
27.86000000,0.01023500
27.87000000,0.01028200
27.88000000,0.01022500
27.89000000,0.01021600
27.90000000,0.01021500
27.91000000,0.01005800
27.92000000,0.00925720
27.93000000,0.00856890
27.94000000,0.00790190
27.95000000,0.00660760
27.96000000,0.00484640
27.97000000,0.00352440
27.98000000,0.00257830
27.99000000,0.00057147
28.00000000,0.00015960
28.05000000,0.00003843
28.10000000,0.00004656
28.15000000,0.00005033
28.20000000,0.00005455
28.25000000,0.00005944
28.30000000,0.00006245
28.35000000,0.00006137
28.40000000,0.00006095
28.45000000,0.00006075
28.50000000,0.00005619
28.55000000,0.00004842
